,timestamp,ID,r_len,P1_age,P1_gender,P1_nationality,P1_r_type,P1_IOS,P2_age,P2_gender,P2_nationality,P2_r_type,P2_IOS,key_press,rt,trial_stim
0,2022_Jan_20_1329,94233,3,33,Male,egrrge,Friends,3,44,Male,sfsefwfw,Family,3,w,0.5081271250091959,YR
1,2022_Jan_20_1329,94233,3,33,Male,egrrge,Friends,3,44,Male,sfsefwfw,Family,3,w,0.47527429199544713,YM
2,2022_Jan_20_1329,94233,3,33,Male,egrrge,Friends,3,44,Male,sfsefwfw,Family,3,w,0.42326999999932013,YR
3,2022_Jan_20_1329,94233,3,33,Male,egrrge,Friends,3,44,Male,sfsefwfw,Family,3,w,0.4790227499906905,YM
4,2022_Jan_20_1329,94233,3,33,Male,egrrge,Friends,3,44,Male,sfsefwfw,Family,3,p,0.3375392089947127,BL
5,2022_Jan_20_1329,94233,3,33,Male,egrrge,Friends,3,44,Male,sfsefwfw,Family,3,w,0.5189207090006676,BR
6,2022_Jan_20_1329,94233,3,33,Male,egrrge,Friends,3,44,Male,sfsefwfw,Family,3,p,0.5181476249999832,BL
7,2022_Jan_20_1329,94233,3,33,Male,egrrge,Friends,3,44,Male,sfsefwfw,Family,3,p,0.4498415839916561,BL
8,2022_Jan_20_1329,94233,3,33,Male,egrrge,Friends,3,44,Male,sfsefwfw,Family,3,p,0.42798983299871907,BL
9,2022_Jan_20_1329,94233,3,33,Male,egrrge,Friends,3,44,Male,sfsefwfw,Family,3,p,0.4768255000235513,BM
10,2022_Jan_20_1329,94233,3,33,Male,egrrge,Friends,3,44,Male,sfsefwfw,Family,3,w,0.4787339580070693,YL
11,2022_Jan_20_1329,94233,3,33,Male,egrrge,Friends,3,44,Male,sfsefwfw,Family,3,p,0.5245060410234146,BR
12,2022_Jan_20_1329,94233,3,33,Male,egrrge,Friends,3,44,Male,sfsefwfw,Family,3,p,0.4928851250151638,BR
13,2022_Jan_20_1329,94233,3,33,Male,egrrge,Friends,3,44,Male,sfsefwfw,Family,3,p,0.48538500000722706,BL
14,2022_Jan_20_1329,94233,3,33,Male,egrrge,Friends,3,44,Male,sfsefwfw,Family,3,p,0.5100180419976823,BR
15,2022_Jan_20_1329,94233,3,33,Male,egrrge,Friends,3,44,Male,sfsefwfw,Family,3,w,0.3879815830150619,YL
16,2022_Jan_20_1329,94233,3,33,Male,egrrge,Friends,3,44,Male,sfsefwfw,Family,3,w,0.4293838750163559,YL
17,2022_Jan_20_1329,94233,3,33,Male,egrrge,Friends,3,44,Male,sfsefwfw,Family,3,w,0.353122667002026,YL
18,2022_Jan_20_1329,94233,3,33,Male,egrrge,Friends,3,44,Male,sfsefwfw,Family,3,p,0.5123435839777812,BR
19,2022_Jan_20_1329,94233,3,33,Male,egrrge,Friends,3,44,Male,sfsefwfw,Family,3,p,0.4772799579950515,BL
20,2022_Jan_20_1329,94233,3,33,Male,egrrge,Friends,3,44,Male,sfsefwfw,Family,3,w,0.48240562502178364,YR
21,2022_Jan_20_1329,94233,3,33,Male,egrrge,Friends,3,44,Male,sfsefwfw,Family,3,p,0.6637568750011269,BR
22,2022_Jan_20_1329,94233,3,33,Male,egrrge,Friends,3,44,Male,sfsefwfw,Family,3,w,0.42181154200807214,YL
23,2022_Jan_20_1329,94233,3,33,Male,egrrge,Friends,3,44,Male,sfsefwfw,Family,3,p,0.6745251670072321,BL
24,2022_Jan_20_1329,94233,3,33,Male,egrrge,Friends,3,44,Male,sfsefwfw,Family,3,w,0.40663295800914057,YL
25,2022_Jan_20_1329,94233,3,33,Male,egrrge,Friends,3,44,Male,sfsefwfw,Family,3,w,0.50356791599188,YL
26,2022_Jan_20_1329,94233,3,33,Male,egrrge,Friends,3,44,Male,sfsefwfw,Family,3,w,0.4185924170014914,YL
27,2022_Jan_20_1329,94233,3,33,Male,egrrge,Friends,3,44,Male,sfsefwfw,Family,3,p,0.588571583997691,BL
28,2022_Jan_20_1329,94233,3,33,Male,egrrge,Friends,3,44,Male,sfsefwfw,Family,3,w,0.6197702909994405,YR
29,2022_Jan_20_1329,94233,3,33,Male,egrrge,Friends,3,44,Male,sfsefwfw,Family,3,p,0.9091128750005737,YM
30,2022_Jan_20_1329,94233,3,33,Male,egrrge,Friends,3,44,Male,sfsefwfw,Family,3,p,0.780201916990336,YR
31,2022_Jan_20_1329,94233,3,33,Male,egrrge,Friends,3,44,Male,sfsefwfw,Family,3,p,0.6846016670169774,BR
32,2022_Jan_20_1329,94233,3,33,Male,egrrge,Friends,3,44,Male,sfsefwfw,Family,3,p,0.6397772089985665,BR
33,2022_Jan_20_1329,94233,3,33,Male,egrrge,Friends,3,44,Male,sfsefwfw,Family,3,w,0.6371433330059517,YR
34,2022_Jan_20_1329,94233,3,33,Male,egrrge,Friends,3,44,Male,sfsefwfw,Family,3,p,0.6177540420030709,BR
35,2022_Jan_20_1329,94233,3,33,Male,egrrge,Friends,3,44,Male,sfsefwfw,Family,3,p,0.6485726670071017,BL
36,2022_Jan_20_1329,94233,3,33,Male,egrrge,Friends,3,44,Male,sfsefwfw,Family,3,w,0.724859917012509,YL
37,2022_Jan_20_1329,94233,3,33,Male,egrrge,Friends,3,44,Male,sfsefwfw,Family,3,p,0.6107496659969911,BM
38,2022_Jan_20_1329,94233,3,33,Male,egrrge,Friends,3,44,Male,sfsefwfw,Family,3,p,0.632222834014101,BL
39,2022_Jan_20_1329,94233,3,33,Male,egrrge,Friends,3,44,Male,sfsefwfw,Family,3,w,0.5832349159754813,YR
40,2022_Jan_20_1329,94233,3,33,Male,egrrge,Friends,3,44,Male,sfsefwfw,Family,3,p,0.5978821660100948,BL
41,2022_Jan_20_1329,94233,3,33,Male,egrrge,Friends,3,44,Male,sfsefwfw,Family,3,p,0.5957603749993723,BR
42,2022_Jan_20_1329,94233,3,33,Male,egrrge,Friends,3,44,Male,sfsefwfw,Family,3,w,0.7153830419993028,YR
43,2022_Jan_20_1329,94233,3,33,Male,egrrge,Friends,3,44,Male,sfsefwfw,Family,3,p,0.3813827920239419,BM
44,2022_Jan_20_1329,94233,3,33,Male,egrrge,Friends,3,44,Male,sfsefwfw,Family,3,w,0.45510908399592154,YR
45,2022_Jan_20_1329,94233,3,33,Male,egrrge,Friends,3,44,Male,sfsefwfw,Family,3,p,0.6409762919938657,BL
46,2022_Jan_20_1329,94233,3,33,Male,egrrge,Friends,3,44,Male,sfsefwfw,Family,3,w,0.5449790409766138,YL
47,2022_Jan_20_1329,94233,3,33,Male,egrrge,Friends,3,44,Male,sfsefwfw,Family,3,p,0.5923411250114441,YL
48,2022_Jan_20_1329,94233,3,33,Male,egrrge,Friends,3,44,Male,sfsefwfw,Family,3,w,0.6260618750238791,YM
49,2022_Jan_20_1329,94233,3,33,Male,egrrge,Friends,3,44,Male,sfsefwfw,Family,3,p,0.3524530830036383,BR
50,2022_Jan_20_1329,94233,3,33,Male,egrrge,Friends,3,44,Male,sfsefwfw,Family,3,p,0.4627156670030672,BM
51,2022_Jan_20_1329,94233,3,33,Male,egrrge,Friends,3,44,Male,sfsefwfw,Family,3,w,0.4295037499978207,YR
52,2022_Jan_20_1329,94233,3,33,Male,egrrge,Friends,3,44,Male,sfsefwfw,Family,3,w,0.5192859999951907,BR
53,2022_Jan_20_1329,94233,3,33,Male,egrrge,Friends,3,44,Male,sfsefwfw,Family,3,p,0.38535129200317897,YR
54,2022_Jan_20_1329,94233,3,33,Male,egrrge,Friends,3,44,Male,sfsefwfw,Family,3,p,0.4874279999930877,YL
55,2022_Jan_20_1329,94233,3,33,Male,egrrge,Friends,3,44,Male,sfsefwfw,Family,3,p,0.6556151249969844,BM
56,2022_Jan_20_1329,94233,3,33,Male,egrrge,Friends,3,44,Male,sfsefwfw,Family,3,w,0.5227029999950901,YM
57,2022_Jan_20_1329,94233,3,33,Male,egrrge,Friends,3,44,Male,sfsefwfw,Family,3,p,0.7087469580001198,YL
58,2022_Jan_20_1329,94233,3,33,Male,egrrge,Friends,3,44,Male,sfsefwfw,Family,3,w,0.8621188329998404,YM
59,2022_Jan_20_1329,94233,3,33,Male,egrrge,Friends,3,44,Male,sfsefwfw,Family,3,w,0.5171229160041548,YR
60,2022_Jan_20_1329,94233,3,33,Male,egrrge,Friends,3,44,Male,sfsefwfw,Family,3,w,0.4606105829880107,YR
61,2022_Jan_20_1329,94233,3,33,Male,egrrge,Friends,3,44,Male,sfsefwfw,Family,3,p,0.5110808750032447,YL
62,2022_Jan_20_1329,94233,3,33,Male,egrrge,Friends,3,44,Male,sfsefwfw,Family,3,w,0.7158761669998057,YM
63,2022_Jan_20_1329,94233,3,33,Male,egrrge,Friends,3,44,Male,sfsefwfw,Family,3,p,0.584432708012173,BM
64,2022_Jan_20_1329,94233,3,33,Male,egrrge,Friends,3,44,Male,sfsefwfw,Family,3,p,0.5563922500004992,BL
65,2022_Jan_20_1329,94233,3,33,Male,egrrge,Friends,3,44,Male,sfsefwfw,Family,3,p,0.6031322089838795,BR
66,2022_Jan_20_1329,94233,3,33,Male,egrrge,Friends,3,44,Male,sfsefwfw,Family,3,p,0.6993469579902012,BL
67,2022_Jan_20_1329,94233,3,33,Male,egrrge,Friends,3,44,Male,sfsefwfw,Family,3,p,0.5743913750047795,BR
68,2022_Jan_20_1329,94233,3,33,Male,egrrge,Friends,3,44,Male,sfsefwfw,Family,3,p,1.1249650420213584,BM
69,2022_Jan_20_1329,94233,3,33,Male,egrrge,Friends,3,44,Male,sfsefwfw,Family,3,w,0.5607674579950981,YR
