,timestamp,experiment_ID,subject,r_len,handedness,vision,colorvision,age,gender,nationality,r_type,IOS,key_press,rt,trial_stim
0,2022_Jan_26_1436,55243,31698,26 years,Right,Yes,No,58,Female,Danish,Romantic,6,p,0.511322500067763,BL
1,2022_Jan_26_1436,55243,31698,26 years,Right,Yes,No,58,Female,Danish,Romantic,6,p,0.5377641000086442,BM
2,2022_Jan_26_1436,55243,31698,26 years,Right,Yes,No,58,Female,Danish,Romantic,6,p,0.5133799999020994,BR
3,2022_Jan_26_1436,55243,86063,26 years,Right,Yes,No,56,Male,dk,Family,3,w,0.47918489994481206,YR
4,2022_Jan_26_1436,55243,86063,26 years,Right,Yes,No,56,Male,dk,Family,3,w,0.3896476000081748,YL
5,2022_Jan_26_1436,55243,86063,26 years,Right,Yes,No,56,Male,dk,Family,3,w,0.36024589999578893,YL
6,2022_Jan_26_1436,55243,31698,26 years,Right,Yes,No,58,Female,Danish,Romantic,6,p,0.5270737000973895,BM
7,2022_Jan_26_1436,55243,86063,26 years,Right,Yes,No,56,Male,dk,Family,3,w,0.5213816000614315,YM
8,2022_Jan_26_1436,55243,86063,26 years,Right,Yes,No,56,Male,dk,Family,3,w,0.39519780001137406,YL
9,2022_Jan_26_1436,55243,86063,26 years,Right,Yes,No,56,Male,dk,Family,3,w,0.4383761000353843,YL
10,2022_Jan_26_1436,55243,86063,26 years,Right,Yes,No,56,Male,dk,Family,3,w,0.3321850000647828,YR
11,2022_Jan_26_1436,55243,31698,26 years,Right,Yes,No,58,Female,Danish,Romantic,6,p,0.40580349997617304,BR
12,2022_Jan_26_1436,55243,86063,26 years,Right,Yes,No,56,Male,dk,Family,3,w,0.3544806999852881,YL
13,2022_Jan_26_1436,55243,86063,26 years,Right,Yes,No,56,Male,dk,Family,3,w,0.39992230001371354,YL
14,2022_Jan_26_1436,55243,31698,26 years,Right,Yes,No,58,Female,Danish,Romantic,6,p,0.6002688000444323,BL
15,2022_Jan_26_1436,55243,86063,26 years,Right,Yes,No,56,Male,dk,Family,3,w,0.34559259994421154,YR
16,2022_Jan_26_1436,55243,31698,26 years,Right,Yes,No,58,Female,Danish,Romantic,6,p,0.3991790000582114,BL
17,2022_Jan_26_1436,55243,31698,26 years,Right,Yes,No,58,Female,Danish,Romantic,6,p,0.6428203999530524,BM
18,2022_Jan_26_1436,55243,31698,26 years,Right,Yes,No,58,Female,Danish,Romantic,6,p,0.6473770999582484,BR
19,2022_Jan_26_1436,55243,86063,26 years,Right,Yes,No,56,Male,dk,Family,3,w,0.3681069000158459,YL
20,2022_Jan_26_1436,55243,31698,26 years,Right,Yes,No,58,Female,Danish,Romantic,6,p,0.5896982999984175,BL
21,2022_Jan_26_1436,55243,31698,26 years,Right,Yes,No,58,Female,Danish,Romantic,6,p,0.5740794000448659,BR
22,2022_Jan_26_1436,55243,31698,26 years,Right,Yes,No,58,Female,Danish,Romantic,6,p,0.5885317999636754,BM
23,2022_Jan_26_1436,55243,31698,26 years,Right,Yes,No,58,Female,Danish,Romantic,6,p,0.5127469999715686,BR
24,2022_Jan_26_1436,55243,31698,26 years,Right,Yes,No,58,Female,Danish,Romantic,6,p,0.6954632999841124,BL
25,2022_Jan_26_1436,55243,86063,26 years,Right,Yes,No,56,Male,dk,Family,3,w,0.40636659995652735,YM
26,2022_Jan_26_1436,55243,31698,26 years,Right,Yes,No,58,Female,Danish,Romantic,6,p,0.41967850003857166,BR
27,2022_Jan_26_1436,55243,86063,26 years,Right,Yes,No,56,Male,dk,Family,3,w,0.4205294999992475,YM
28,2022_Jan_26_1436,55243,86063,26 years,Right,Yes,No,56,Male,dk,Family,3,w,0.40616940008476377,YL
29,2022_Jan_26_1436,55243,31698,26 years,Right,Yes,No,58,Female,Danish,Romantic,6,p,0.5367740000365302,BL
30,2022_Jan_26_1436,55243,86063,26 years,Right,Yes,No,56,Male,dk,Family,3,w,0.44120480003766716,YM
31,2022_Jan_26_1436,55243,31698,26 years,Right,Yes,No,58,Female,Danish,Romantic,6,p,0.5814842999679968,BR
32,2022_Jan_26_1436,55243,86063,26 years,Right,Yes,No,56,Male,dk,Family,3,w,0.4067134000360966,YR
33,2022_Jan_26_1436,55243,86063,26 years,Right,Yes,No,56,Male,dk,Family,3,w,0.5196892999811098,YR
34,2022_Jan_26_1436,55243,86063,26 years,Right,Yes,No,56,Male,dk,Family,3,w,0.34588220005389303,YR
35,2022_Jan_26_1436,55243,86063,26 years,Right,Yes,No,56,Male,dk,Family,3,w,0.3837983999401331,YR
36,2022_Jan_26_1436,55243,86063,26 years,Right,Yes,No,56,Male,dk,Family,3,w,0.39520469994749874,YL
37,2022_Jan_26_1436,55243,31698,26 years,Right,Yes,No,58,Female,Danish,Romantic,6,p,0.4689758999738842,BR
38,2022_Jan_26_1436,55243,86063,26 years,Right,Yes,No,56,Male,dk,Family,3,w,0.3824316000100225,YL
39,2022_Jan_26_1436,55243,31698,26 years,Right,Yes,No,58,Female,Danish,Romantic,6,p,0.5593686000211164,BL
40,2022_Jan_26_1436,55243,86063,26 years,Right,Yes,No,56,Male,dk,Family,3,w,0.3927762000821531,YM
41,2022_Jan_26_1436,55243,86063,26 years,Right,Yes,No,56,Male,dk,Family,3,w,0.4246817999519408,YL
42,2022_Jan_26_1436,55243,31698,26 years,Right,Yes,No,58,Female,Danish,Romantic,6,p,0.7228196000214666,BL
43,2022_Jan_26_1436,55243,86063,26 years,Right,Yes,No,56,Male,dk,Family,3,w,0.4009217000566423,YM
44,2022_Jan_26_1436,55243,86063,26 years,Right,Yes,No,56,Male,dk,Family,3,w,0.3642204999923706,YR
45,2022_Jan_26_1436,55243,31698,26 years,Right,Yes,No,58,Female,Danish,Romantic,6,p,0.5036689001135528,BL
46,2022_Jan_26_1436,55243,31698,26 years,Right,Yes,No,58,Female,Danish,Romantic,6,p,0.5212437000591308,BL
47,2022_Jan_26_1436,55243,86063,26 years,Right,Yes,No,56,Male,dk,Family,3,w,0.4145788000896573,YR
48,2022_Jan_26_1436,55243,31698,26 years,Right,Yes,No,58,Female,Danish,Romantic,6,p,0.5276140000205487,BM
49,2022_Jan_26_1436,55243,86063,26 years,Right,Yes,No,56,Male,dk,Family,3,w,0.35347889992408454,YL
50,2022_Jan_26_1436,55243,31698,26 years,Right,Yes,No,58,Female,Danish,Romantic,6,p,0.5913719000527635,BL
51,2022_Jan_26_1436,55243,31698,26 years,Right,Yes,No,58,Female,Danish,Romantic,6,p,0.5501772999996319,BL
52,2022_Jan_26_1436,55243,31698,26 years,Right,Yes,No,58,Female,Danish,Romantic,6,p,0.6409457999980077,BR
53,2022_Jan_26_1436,55243,31698,26 years,Right,Yes,No,58,Female,Danish,Romantic,6,p,0.6078017000108957,BR
54,2022_Jan_26_1436,55243,86063,26 years,Right,Yes,No,56,Male,dk,Family,3,w,0.39471090002916753,YL
55,2022_Jan_26_1436,55243,86063,26 years,Right,Yes,No,56,Male,dk,Family,3,w,0.3531752999406308,YL
56,2022_Jan_26_1436,55243,86063,26 years,Right,Yes,No,56,Male,dk,Family,3,w,0.3400998000288382,YR
57,2022_Jan_26_1436,55243,31698,26 years,Right,Yes,No,58,Female,Danish,Romantic,6,p,0.5440452999901026,BL
58,2022_Jan_26_1436,55243,86063,26 years,Right,Yes,No,56,Male,dk,Family,3,w,0.36259949998930097,YR
59,2022_Jan_26_1436,55243,31698,26 years,Right,Yes,No,58,Female,Danish,Romantic,6,p,0.544475199887529,BL
60,2022_Jan_26_1436,55243,31698,26 years,Right,Yes,No,58,Female,Danish,Romantic,6,p,0.5524044999619946,BR
61,2022_Jan_26_1436,55243,31698,26 years,Right,Yes,No,58,Female,Danish,Romantic,6,p,0.4110231000231579,BM
62,2022_Jan_26_1436,55243,31698,26 years,Right,Yes,No,58,Female,Danish,Romantic,6,p,0.4913249999517575,BR
63,2022_Jan_26_1436,55243,31698,26 years,Right,Yes,No,58,Female,Danish,Romantic,6,p,0.5034453999251127,BM
64,2022_Jan_26_1436,55243,86063,26 years,Right,Yes,No,56,Male,dk,Family,3,w,0.45319649996235967,YR
65,2022_Jan_26_1436,55243,86063,26 years,Right,Yes,No,56,Male,dk,Family,3,w,0.5291344000725076,YM
66,2022_Jan_26_1436,55243,86063,26 years,Right,Yes,No,56,Male,dk,Family,3,w,0.4046705000801012,YR
67,2022_Jan_26_1436,55243,31698,26 years,Right,Yes,No,58,Female,Danish,Romantic,6,p,0.4818063999991864,BR
68,2022_Jan_26_1436,55243,86063,26 years,Right,Yes,No,56,Male,dk,Family,3,w,0.37506189988926053,YR
69,2022_Jan_26_1436,55243,31698,26 years,Right,Yes,No,58,Female,Danish,Romantic,6,p,0.5177183999912813,BR
