,timestamp,ID,r_len,P1_nn,P1_age,P1_gender,P1_nationality,P1_r_type,P1_IOS,P2_nn,P2_age,P2_gender,P2_nationality,P2_r_type,P2_IOS,key_press,rt,trial_stim
0,2022_Jan_18_1809,74240,2 måner,Særling,77,Female,ggg,Family,1,Hamdenomegaseje,237,Other,Sumali,Romantic,3,p,0.43326687499939,BM
1,2022_Jan_18_1809,74240,2 måner,Særling,77,Female,ggg,Family,1,Hamdenomegaseje,237,Other,Sumali,Romantic,3,w,0.39113645799807273,YL
2,2022_Jan_18_1809,74240,2 måner,Særling,77,Female,ggg,Family,1,Hamdenomegaseje,237,Other,Sumali,Romantic,3,w,0.5080342500004917,YL
3,2022_Jan_18_1809,74240,2 måner,Særling,77,Female,ggg,Family,1,Hamdenomegaseje,237,Other,Sumali,Romantic,3,p,0.37863995799853,BL
4,2022_Jan_18_1809,74240,2 måner,Særling,77,Female,ggg,Family,1,Hamdenomegaseje,237,Other,Sumali,Romantic,3,p,0.4069223749975208,BL
5,2022_Jan_18_1809,74240,2 måner,Særling,77,Female,ggg,Family,1,Hamdenomegaseje,237,Other,Sumali,Romantic,3,w,0.31958279199898243,YR
6,2022_Jan_18_1809,74240,2 måner,Særling,77,Female,ggg,Family,1,Hamdenomegaseje,237,Other,Sumali,Romantic,3,p,0.5078665420005564,BR
7,2022_Jan_18_1809,74240,2 måner,Særling,77,Female,ggg,Family,1,Hamdenomegaseje,237,Other,Sumali,Romantic,3,p,0.5175177089986391,BL
8,2022_Jan_18_1809,74240,2 måner,Særling,77,Female,ggg,Family,1,Hamdenomegaseje,237,Other,Sumali,Romantic,3,w,0.3200290000095265,YM
9,2022_Jan_18_1809,74240,2 måner,Særling,77,Female,ggg,Family,1,Hamdenomegaseje,237,Other,Sumali,Romantic,3,p,0.6029525839985581,BL
10,2022_Jan_18_1809,74240,2 måner,Særling,77,Female,ggg,Family,1,Hamdenomegaseje,237,Other,Sumali,Romantic,3,w,0.4526592920010444,YL
11,2022_Jan_18_1809,74240,2 måner,Særling,77,Female,ggg,Family,1,Hamdenomegaseje,237,Other,Sumali,Romantic,3,p,0.340195541997673,BR
12,2022_Jan_18_1809,74240,2 måner,Særling,77,Female,ggg,Family,1,Hamdenomegaseje,237,Other,Sumali,Romantic,3,p,0.43177362499409355,BL
13,2022_Jan_18_1809,74240,2 måner,Særling,77,Female,ggg,Family,1,Hamdenomegaseje,237,Other,Sumali,Romantic,3,w,0.4023152080044383,YR
14,2022_Jan_18_1809,74240,2 måner,Særling,77,Female,ggg,Family,1,Hamdenomegaseje,237,Other,Sumali,Romantic,3,p,0.3878487500041956,BL
15,2022_Jan_18_1809,74240,2 måner,Særling,77,Female,ggg,Family,1,Hamdenomegaseje,237,Other,Sumali,Romantic,3,w,0.41704887500964105,YL
16,2022_Jan_18_1809,74240,2 måner,Særling,77,Female,ggg,Family,1,Hamdenomegaseje,237,Other,Sumali,Romantic,3,w,0.4127659590012627,YR
17,2022_Jan_18_1809,74240,2 måner,Særling,77,Female,ggg,Family,1,Hamdenomegaseje,237,Other,Sumali,Romantic,3,p,0.48229137501039077,BM
18,2022_Jan_18_1809,74240,2 måner,Særling,77,Female,ggg,Family,1,Hamdenomegaseje,237,Other,Sumali,Romantic,3,p,0.37566379200143274,BR
19,2022_Jan_18_1809,74240,2 måner,Særling,77,Female,ggg,Family,1,Hamdenomegaseje,237,Other,Sumali,Romantic,3,p,0.5013003750063945,BL
20,2022_Jan_18_1809,74240,2 måner,Særling,77,Female,ggg,Family,1,Hamdenomegaseje,237,Other,Sumali,Romantic,3,p,0.4878889999963576,BL
21,2022_Jan_18_1809,74240,2 måner,Særling,77,Female,ggg,Family,1,Hamdenomegaseje,237,Other,Sumali,Romantic,3,p,0.3727054579940159,BR
22,2022_Jan_18_1809,74240,2 måner,Særling,77,Female,ggg,Family,1,Hamdenomegaseje,237,Other,Sumali,Romantic,3,w,0.39410812499409076,YM
23,2022_Jan_18_1809,74240,2 måner,Særling,77,Female,ggg,Family,1,Hamdenomegaseje,237,Other,Sumali,Romantic,3,p,0.4156099579995498,BR
24,2022_Jan_18_1809,74240,2 måner,Særling,77,Female,ggg,Family,1,Hamdenomegaseje,237,Other,Sumali,Romantic,3,p,0.5667665829969337,BM
25,2022_Jan_18_1809,74240,2 måner,Særling,77,Female,ggg,Family,1,Hamdenomegaseje,237,Other,Sumali,Romantic,3,p,0.41199016699101776,BM
26,2022_Jan_18_1809,74240,2 måner,Særling,77,Female,ggg,Family,1,Hamdenomegaseje,237,Other,Sumali,Romantic,3,p,0.5497661249974044,BL
27,2022_Jan_18_1809,74240,2 måner,Særling,77,Female,ggg,Family,1,Hamdenomegaseje,237,Other,Sumali,Romantic,3,w,0.4667625410074834,YL
28,2022_Jan_18_1809,74240,2 måner,Særling,77,Female,ggg,Family,1,Hamdenomegaseje,237,Other,Sumali,Romantic,3,w,0.30351779199554585,YM
29,2022_Jan_18_1809,74240,2 måner,Særling,77,Female,ggg,Family,1,Hamdenomegaseje,237,Other,Sumali,Romantic,3,w,0.3101841250027064,YL
30,2022_Jan_18_1809,74240,2 måner,Særling,77,Female,ggg,Family,1,Hamdenomegaseje,237,Other,Sumali,Romantic,3,p,0.499948749988107,BR
31,2022_Jan_18_1809,74240,2 måner,Særling,77,Female,ggg,Family,1,Hamdenomegaseje,237,Other,Sumali,Romantic,3,p,0.41085808401112445,BM
32,2022_Jan_18_1809,74240,2 måner,Særling,77,Female,ggg,Family,1,Hamdenomegaseje,237,Other,Sumali,Romantic,3,p,0.5075978329987265,BR
33,2022_Jan_18_1809,74240,2 måner,Særling,77,Female,ggg,Family,1,Hamdenomegaseje,237,Other,Sumali,Romantic,3,p,0.48956845900102053,BM
34,2022_Jan_18_1809,74240,2 måner,Særling,77,Female,ggg,Family,1,Hamdenomegaseje,237,Other,Sumali,Romantic,3,w,0.3078777920018183,YR
35,2022_Jan_18_1809,74240,2 måner,Særling,77,Female,ggg,Family,1,Hamdenomegaseje,237,Other,Sumali,Romantic,3,w,0.4114638750033919,YM
36,2022_Jan_18_1809,74240,2 måner,Særling,77,Female,ggg,Family,1,Hamdenomegaseje,237,Other,Sumali,Romantic,3,w,0.3368388750095619,YM
37,2022_Jan_18_1809,74240,2 måner,Særling,77,Female,ggg,Family,1,Hamdenomegaseje,237,Other,Sumali,Romantic,3,w,0.36508583299291786,YR
38,2022_Jan_18_1809,74240,2 måner,Særling,77,Female,ggg,Family,1,Hamdenomegaseje,237,Other,Sumali,Romantic,3,p,0.6261305840016576,BL
39,2022_Jan_18_1809,74240,2 måner,Særling,77,Female,ggg,Family,1,Hamdenomegaseje,237,Other,Sumali,Romantic,3,w,0.3295864999963669,YR
40,2022_Jan_18_1809,74240,2 måner,Særling,77,Female,ggg,Family,1,Hamdenomegaseje,237,Other,Sumali,Romantic,3,p,0.4103651249897666,BR
41,2022_Jan_18_1809,74240,2 måner,Særling,77,Female,ggg,Family,1,Hamdenomegaseje,237,Other,Sumali,Romantic,3,p,0.5923142919928068,BL
42,2022_Jan_18_1809,74240,2 måner,Særling,77,Female,ggg,Family,1,Hamdenomegaseje,237,Other,Sumali,Romantic,3,w,0.3925074170110747,YL
43,2022_Jan_18_1809,74240,2 måner,Særling,77,Female,ggg,Family,1,Hamdenomegaseje,237,Other,Sumali,Romantic,3,w,0.3325517920020502,YR
44,2022_Jan_18_1809,74240,2 måner,Særling,77,Female,ggg,Family,1,Hamdenomegaseje,237,Other,Sumali,Romantic,3,w,0.32561679200443905,YM
45,2022_Jan_18_1809,74240,2 måner,Særling,77,Female,ggg,Family,1,Hamdenomegaseje,237,Other,Sumali,Romantic,3,p,0.4336602919938741,BR
46,2022_Jan_18_1809,74240,2 måner,Særling,77,Female,ggg,Family,1,Hamdenomegaseje,237,Other,Sumali,Romantic,3,p,0.5074776249966817,BR
47,2022_Jan_18_1809,74240,2 måner,Særling,77,Female,ggg,Family,1,Hamdenomegaseje,237,Other,Sumali,Romantic,3,w,0.390027834000648,YR
48,2022_Jan_18_1809,74240,2 måner,Særling,77,Female,ggg,Family,1,Hamdenomegaseje,237,Other,Sumali,Romantic,3,w,0.3380409579986008,YL
49,2022_Jan_18_1809,74240,2 måner,Særling,77,Female,ggg,Family,1,Hamdenomegaseje,237,Other,Sumali,Romantic,3,p,0.39565950000542216,BR
50,2022_Jan_18_1809,74240,2 måner,Særling,77,Female,ggg,Family,1,Hamdenomegaseje,237,Other,Sumali,Romantic,3,w,0.33884891599882394,YR
51,2022_Jan_18_1809,74240,2 måner,Særling,77,Female,ggg,Family,1,Hamdenomegaseje,237,Other,Sumali,Romantic,3,w,0.27214670900139026,YL
52,2022_Jan_18_1809,74240,2 måner,Særling,77,Female,ggg,Family,1,Hamdenomegaseje,237,Other,Sumali,Romantic,3,w,0.3536842499888735,YL
53,2022_Jan_18_1809,74240,2 måner,Særling,77,Female,ggg,Family,1,Hamdenomegaseje,237,Other,Sumali,Romantic,3,w,0.32732095899700653,YL
54,2022_Jan_18_1809,74240,2 måner,Særling,77,Female,ggg,Family,1,Hamdenomegaseje,237,Other,Sumali,Romantic,3,p,0.5448073330044281,BL
55,2022_Jan_18_1809,74240,2 måner,Særling,77,Female,ggg,Family,1,Hamdenomegaseje,237,Other,Sumali,Romantic,3,p,0.39908941599423997,BR
56,2022_Jan_18_1809,74240,2 måner,Særling,77,Female,ggg,Family,1,Hamdenomegaseje,237,Other,Sumali,Romantic,3,w,0.340959416993428,YR
57,2022_Jan_18_1809,74240,2 måner,Særling,77,Female,ggg,Family,1,Hamdenomegaseje,237,Other,Sumali,Romantic,3,w,0.28550283300864976,YL
58,2022_Jan_18_1809,74240,2 måner,Særling,77,Female,ggg,Family,1,Hamdenomegaseje,237,Other,Sumali,Romantic,3,w,0.4587924590014154,YR
59,2022_Jan_18_1809,74240,2 måner,Særling,77,Female,ggg,Family,1,Hamdenomegaseje,237,Other,Sumali,Romantic,3,w,0.295471165998606,YR
60,2022_Jan_18_1809,74240,2 måner,Særling,77,Female,ggg,Family,1,Hamdenomegaseje,237,Other,Sumali,Romantic,3,w,0.305614416996832,YR
61,2022_Jan_18_1809,74240,2 måner,Særling,77,Female,ggg,Family,1,Hamdenomegaseje,237,Other,Sumali,Romantic,3,w,0.26525833300547674,BL
62,2022_Jan_18_1809,74240,2 måner,Særling,77,Female,ggg,Family,1,Hamdenomegaseje,237,Other,Sumali,Romantic,3,w,1.1582466249965364,YL
63,2022_Jan_18_1809,74240,2 måner,Særling,77,Female,ggg,Family,1,Hamdenomegaseje,237,Other,Sumali,Romantic,3,p,0.45854883300489746,BL
64,2022_Jan_18_1809,74240,2 måner,Særling,77,Female,ggg,Family,1,Hamdenomegaseje,237,Other,Sumali,Romantic,3,p,0.4107786670065252,BR
65,2022_Jan_18_1809,74240,2 måner,Særling,77,Female,ggg,Family,1,Hamdenomegaseje,237,Other,Sumali,Romantic,3,w,0.3789356659981422,YR
66,2022_Jan_18_1809,74240,2 måner,Særling,77,Female,ggg,Family,1,Hamdenomegaseje,237,Other,Sumali,Romantic,3,p,0.41593099999590777,BM
67,2022_Jan_18_1809,74240,2 måner,Særling,77,Female,ggg,Family,1,Hamdenomegaseje,237,Other,Sumali,Romantic,3,w,0.375808708005934,YL
68,2022_Jan_18_1809,74240,2 måner,Særling,77,Female,ggg,Family,1,Hamdenomegaseje,237,Other,Sumali,Romantic,3,p,0.43520574999274686,BR
69,2022_Jan_18_1809,74240,2 måner,Særling,77,Female,ggg,Family,1,Hamdenomegaseje,237,Other,Sumali,Romantic,3,w,0.3749975000100676,YM
